File: ZnO_STD_Fendas/ZnO_STD_F.ASC
*TYPE		=  Raw
*CLASS		=  ASCII CLASS
*SAMPLE		=  ZnO_STD_F
*COMMENT	=  ZnO_STD_FINO
*FNAME		=  ZnO_STD_F.raw
*DATE		=  16-Aug-13 11:57

*GROUP_COUNT	=  1
*GONIO		=  Ultima IV, 285
*ATTACHMENT	=  Standard Att.
*ASC		=  0, 0, 0.000000, 0.000000
*I_MONOCHRO	=  CBO, 0.000000
*C_MONOCHRO	=  Fixed Monochro.(U4), 3.354
*SLIT_NAME	=  0, DivSlit
*SLIT_NAME	=  1, DivH.L.Slit
*SLIT_NAME	=  2, SctSlit
*SLIT_NAME	=  3, RecSlit
*SLIT_NAME	=  4, Monochro RS
*COUNTER	=  Scintillation counter, 0
*POS_FORMAT	=  0
*SCAN_AXIS	=  2theta/theta
*MEAS_MODE	=  FT
*TARGET		=  29
*XRAY_CHAR	=  K-ALPHA1
*WAVE_LENGTH1	=  1.54056
*WAVE_LENGTH2	=  1.5444
*THICKNESS	=  0, 0.000000
*MU		=  0, 0.000000
*SCAN_MODE	=  2theta/theta
*SPEED_DIM	=  sec./step(FT)
*XUNIT		=  deg.
*YUNIT		=  counts
*SCALE_MODE	=  1
*REP_COUNT	=  1
*SE_COUNT	=  0
*STD_MATERIAL	=  Unknown, Unknown, 0.000000, 0.000000, 0.000000, 0.000000, 0.000000, 0.000000
*LATT_CONS	=  0, Unknown, Unknown, 0.000000, 0.000000, 0.000000, 0.000000, 0.000000, 0.000000
*SEC_COUNT	=  1
*TSPEC_SIZE	=  0
*EXTRA_SIZE	=  0
*MEMO		=

*BEGIN
*GROUP		=  0
*START		=  27
*STOP		=  80
*STEP		=  0.02
*OFFSET		=  0.000000
*SPEED		=  7
*SLIT_SPEC	=  0, 1/6deg., 0.58, 10
*SLIT_SPEC	=  1, 10mm, 8, 10
*SLIT_SPEC	=  2, 1/6deg., 0.22, 20
*SLIT_SPEC	=  3, 0.15mm, 0.15, 20
*SLIT_SPEC	=  4, No Use, 0.000000, 20
*KV		=  40
*MA		=  30
*LOW		=  0.000000
*HIGH		=  0.000000
*CTEMPER	=  0, 0.000000
*CTEMPER	=  1, 0.000000
*CTEMPER	=  2, 0.000000
*PAREX		=  0, 0.000000
*PAREX		=  1, 0.000000
*PAREX		=  2, 0.000000
*PAREX		=  3, 0.000000
*PAREX		=  4, 0.000000
*PAREX		=  5, 0.000000
*PAREX		=  6, 0.000000
*PAREX		=  7, 0.000000
*PAREX		=  8, 0.000000
*PAREX		=  9, 0.000000
*PAREX		=  10, 0.000000
*PAREX		=  11, 0.000000
*PAREX		=  12, 0.000000
*PAREX		=  13, 0.000000
*PAREX		=  14, 0.000000
*PAREX		=  15, 0.000000
*FULL_SCALE	=  100
*INDEX		=  0, 0, 0
*COUNT		=  2651
13, 5, 9, 9
12, 10, 7, 11
13, 8, 9, 12
13, 10, 8, 12
16, 9, 15, 12
13, 10, 9, 9
10, 10, 16, 10
12, 15, 9, 13
12, 9, 12, 11
11, 10, 10, 14
11, 12, 9, 14
8, 9, 7, 17
6, 13, 15, 14
11, 8, 3, 6
10, 15, 13, 10
17, 14, 14, 10
18, 11, 6, 9
11, 9, 13, 14
16, 17, 9, 14
9, 4, 16, 14
12, 9, 14, 4
12, 14, 9, 11
11, 11, 8, 11
10, 9, 5, 19
22, 10, 13, 10
16, 11, 21, 16
11, 17, 15, 11
6, 16, 12, 16
11, 9, 14, 12
11, 7, 12, 13
17, 12, 9, 10
12, 16, 10, 12
15, 9, 14, 9
11, 15, 10, 12
6, 8, 16, 12
14, 12, 14, 14
7, 17, 18, 14
12, 10, 18, 13
10, 10, 6, 13
11, 10, 11, 13
14, 17, 10, 11
13, 16, 15, 21
12, 19, 16, 17
10, 13, 16, 17
16, 21, 14, 21
12, 17, 18, 19
15, 20, 10, 11
13, 16, 11, 19
26, 21, 19, 18
16, 18, 21, 23
28, 40, 23, 24
34, 32, 20, 24
27, 32, 41, 31
42, 35, 48, 56
65, 65, 69, 58
66, 92, 96, 137
161, 205, 236, 315
387, 548, 704, 962
1224, 1611, 2212, 3337
5534, 8718, 9644, 6194
4427, 5056, 5045, 3074
1551, 910, 605, 467
352, 291, 214, 158
164, 121, 100, 76
71, 74, 63, 62
60, 41, 35, 31
34, 25, 25, 26
19, 38, 24, 28
20, 28, 24, 18
24, 27, 28, 29
26, 29, 20, 24
22, 17, 25, 21
18, 27, 13, 20
20, 19, 22, 12
16, 23, 21, 16
18, 23, 21, 17
15, 17, 25, 9
23, 22, 18, 27
16, 15, 15, 22
16, 16, 25, 17
11, 17, 23, 15
21, 16, 18, 29
16, 23, 17, 15
23, 25, 24, 24
19, 22, 25, 26
34, 25, 26, 28
32, 22, 34, 43
41, 48, 32, 48
66, 48, 54, 56
71, 89, 123, 135
202, 257, 410, 527
559, 764, 1070, 1599
2525, 4255, 4578, 3356
2412, 2460, 2761, 2027
1202, 737, 466, 297
234, 213, 171, 124
124, 97, 98, 54
66, 47, 69, 42
38, 43, 34, 33
33, 46, 35, 38
28, 23, 24, 26
29, 23, 26, 32
22, 25, 33, 16
31, 24, 28, 18
31, 33, 32, 23
27, 26, 24, 41
36, 31, 35, 32
41, 48, 47, 44
52, 65, 68, 54
64, 70, 73, 84
93, 92, 96, 105
154, 154, 168, 195
247, 274, 403, 565
598, 772, 1022, 1311
1810, 2508, 3433, 4782
7016, 9737, 10354, 8059
5813, 5635, 5936, 5026
3424, 2060, 1344, 1005
674, 600, 430, 358
279, 233, 189, 153
136, 126, 112, 89
83, 83, 84, 64
55, 53, 63, 49
41, 51, 45, 28
24, 33, 29, 34
32, 30, 28, 38
20, 27, 18, 21
27, 20, 28, 26
16, 14, 27, 22
22, 23, 22, 17
18, 28, 17, 18
12, 20, 15, 20
18, 19, 17, 14
23, 15, 19, 20
14, 15, 11, 18
18, 18, 17, 21
8, 15, 15, 19
12, 18, 24, 16
20, 13, 18, 18
7, 18, 26, 18
15, 17, 18, 13
11, 21, 11, 15
14, 11, 18, 11
16, 22, 12, 16
18, 11, 18, 18
14, 14, 15, 17
17, 14, 19, 12
16, 9, 16, 11
8, 16, 14, 15
8, 17, 19, 21
16, 17, 14, 13
12, 14, 21, 17
19, 13, 15, 14
10, 12, 9, 21
14, 8, 16, 14
13, 14, 17, 14
10, 12, 16, 9
12, 9, 14, 15
10, 19, 12, 13
13, 17, 14, 14
16, 16, 18, 16
12, 21, 20, 12
16, 16, 10, 16
14, 12, 28, 17
12, 8, 14, 7
10, 12, 11, 12
12, 16, 13, 15
11, 16, 16, 16
15, 12, 11, 15
12, 5, 9, 14
13, 8, 14, 14
10, 8, 12, 11
13, 20, 18, 15
13, 18, 10, 12
6, 11, 15, 14
16, 21, 11, 13
19, 13, 16, 12
15, 6, 14, 7
14, 22, 15, 12
17, 9, 10, 17
11, 11, 12, 11
7, 15, 11, 13
18, 12, 10, 14
12, 16, 14, 26
13, 14, 10, 12
21, 14, 18, 12
14, 8, 18, 9
17, 14, 12, 21
14, 13, 19, 13
10, 13, 15, 14
10, 18, 16, 16
12, 14, 15, 12
14, 14, 15, 13
7, 13, 9, 9
16, 12, 15, 15
4, 9, 13, 22
20, 12, 11, 12
11, 13, 9, 14
13, 11, 18, 11
14, 11, 7, 11
13, 16, 9, 15
16, 12, 10, 14
17, 14, 13, 16
12, 11, 13, 17
12, 8, 15, 13
12, 11, 10, 12
11, 14, 8, 15
14, 19, 14, 13
10, 13, 9, 19
13, 14, 12, 14
10, 15, 14, 14
10, 15, 18, 12
14, 11, 11, 7
11, 9, 22, 9
18, 12, 12, 12
17, 10, 16, 15
21, 16, 18, 11
7, 13, 10, 17
18, 18, 17, 16
17, 8, 9, 8
7, 10, 15, 14
13, 7, 14, 25
10, 9, 13, 14
7, 9, 13, 11
13, 12, 9, 9
12, 19, 13, 15
13, 9, 16, 21
12, 17, 13, 19
10, 11, 16, 9
11, 12, 17, 9
7, 13, 16, 12
12, 19, 25, 14
15, 19, 14, 7
21, 21, 18, 17
24, 8, 15, 18
17, 10, 9, 16
10, 17, 14, 13
13, 22, 14, 15
13, 12, 14, 12
11, 8, 12, 14
18, 9, 15, 22
19, 10, 18, 21
10, 14, 19, 16
13, 21, 13, 19
11, 17, 20, 21
15, 20, 10, 17
20, 22, 15, 20
11, 18, 27, 17
20, 24, 20, 16
24, 18, 26, 20
26, 27, 20, 24
28, 39, 37, 44
54, 53, 73, 84
75, 75, 107, 125
157, 168, 174, 259
363, 522, 772, 1157
1599, 1932, 2170, 1732
1227, 1111, 1102, 1136
1249, 994, 720, 486
327, 260, 195, 146
127, 103, 97, 65
60, 55, 50, 61
39, 32, 28, 34
30, 29, 40, 34
22, 24, 17, 31
24, 23, 23, 12
20, 15, 14, 18
19, 15, 21, 15
15, 9, 22, 23
12, 14, 11, 15
7, 11, 9, 21
10, 17, 9, 22
18, 8, 14, 11
17, 20, 14, 11
17, 14, 18, 20
22, 16, 10, 7
8, 13, 15, 9
15, 7, 18, 12
15, 13, 16, 6
16, 16, 10, 15
14, 22, 10, 12
21, 17, 18, 10
7, 13, 14, 21
20, 13, 19, 11
14, 16, 18, 19
15, 16, 8, 13
10, 8, 18, 18
13, 13, 10, 10
11, 11, 14, 13
17, 12, 24, 17
16, 12, 8, 19
13, 11, 18, 14
11, 8, 15, 14
17, 10, 17, 11
12, 14, 12, 8
19, 9, 13, 11
18, 9, 8, 16
17, 20, 17, 13
11, 10, 11, 19
10, 13, 13, 17
15, 8, 11, 14
16, 20, 16, 11
9, 15, 16, 13
15, 16, 16, 14
16, 18, 17, 12
11, 18, 14, 29
25, 17, 13, 8
15, 12, 19, 14
7, 10, 8, 13
15, 22, 14, 14
10, 21, 17, 13
24, 16, 15, 15
9, 2, 9, 13
13, 13, 15, 12
14, 19, 15, 11
15, 11, 7, 13
19, 16, 10, 15
18, 7, 14, 22
17, 11, 8, 8
16, 15, 11, 11
19, 7, 12, 10
13, 18, 12, 12
10, 19, 18, 11
14, 17, 13, 20
17, 10, 9, 11
19, 12, 12, 15
10, 12, 18, 18
17, 13, 11, 9
19, 17, 24, 18
18, 21, 16, 14
18, 13, 19, 20
13, 15, 13, 15
15, 19, 11, 12
15, 12, 10, 13
13, 11, 11, 12
20, 21, 13, 14
15, 15, 15, 11
21, 14, 19, 14
15, 17, 14, 18
13, 19, 16, 12
14, 21, 15, 19
18, 15, 23, 20
13, 23, 16, 19
18, 24, 17, 21
11, 20, 16, 15
16, 12, 15, 16
13, 19, 14, 17
12, 16, 14, 19
8, 13, 10, 19
25, 20, 14, 21
15, 33, 16, 21
14, 13, 20, 34
20, 15, 20, 19
18, 29, 20, 13
19, 16, 22, 22
26, 20, 23, 19
20, 27, 31, 24
24, 23, 33, 23
22, 17, 22, 24
26, 24, 22, 26
34, 30, 36, 30
28, 37, 27, 34
28, 40, 43, 39
42, 46, 44, 45
51, 66, 70, 67
86, 95, 87, 127
125, 137, 160, 177
211, 270, 342, 378
516, 596, 947, 1208
1573, 1972, 2370, 2299
1961, 1555, 1289, 1160
1204, 1357, 1395, 1255
959, 686, 513, 402
309, 261, 210, 178
162, 140, 93, 99
94, 87, 66, 70
65, 53, 58, 43
51, 48, 38, 39
45, 29, 32, 32
30, 32, 32, 32
35, 24, 23, 30
31, 19, 30, 18
25, 22, 26, 24
15, 22, 28, 26
29, 25, 24, 17
26, 20, 23, 16
30, 19, 31, 30
20, 13, 18, 14
26, 13, 17, 18
16, 29, 18, 20
20, 24, 13, 20
16, 27, 15, 26
18, 16, 27, 22
13, 9, 16, 15
16, 17, 28, 14
18, 13, 23, 13
19, 21, 20, 14
15, 16, 20, 20
24, 14, 17, 15
18, 25, 25, 21
10, 17, 20, 14
23, 15, 11, 15
12, 21, 20, 17
15, 25, 12, 25
12, 23, 20, 16
14, 13, 20, 27
20, 16, 7, 14
18, 17, 18, 16
14, 21, 16, 24
19, 21, 20, 22
19, 17, 23, 16
17, 12, 28, 16
23, 16, 24, 23
28, 22, 16, 19
23, 19, 13, 15
19, 22, 15, 20
26, 25, 20, 23
20, 17, 17, 21
26, 22, 6, 13
14, 22, 19, 14
19, 20, 15, 18
20, 16, 29, 23
20, 16, 16, 15
20, 13, 19, 16
8, 12, 14, 22
16, 21, 21, 26
22, 21, 15, 30
31, 15, 19, 18
26, 24, 29, 20
20, 22, 20, 27
21, 21, 21, 17
26, 17, 21, 15
21, 20, 30, 20
27, 30, 29, 17
28, 27, 32, 23
10, 28, 22, 30
22, 23, 40, 26
26, 14, 30, 33
32, 37, 28, 24
22, 39, 32, 35
34, 31, 34, 47
38, 42, 46, 41
52, 65, 54, 68
70, 74, 94, 97
113, 124, 127, 157
161, 186, 221, 289
326, 383, 514, 699
986, 1319, 1781, 2073
2317, 1974, 1519, 1184
1089, 951, 1081, 1170
1311, 1193, 1012, 782
524, 443, 346, 242
224, 156, 164, 146
104, 89, 87, 81
83, 75, 71, 49
49, 41, 48, 42
42, 56, 39, 33
38, 37, 34, 24
35, 32, 39, 24
35, 28, 35, 24
21, 22, 34, 26
25, 27, 36, 22
31, 19, 16, 16
23, 22, 20, 29
16, 20, 20, 22
15, 19, 29, 29
18, 25, 17, 14
19, 23, 20, 24
20, 19, 20, 14
16, 21, 16, 17
17, 15, 20, 17
21, 22, 19, 25
17, 14, 17, 19
26, 14, 21, 10
16, 30, 17, 35
27, 20, 16, 13
23, 22, 33, 25
28, 28, 17, 16
26, 21, 30, 30
24, 22, 17, 17
23, 33, 12, 16
31, 19, 18, 28
21, 28, 30, 15
22, 25, 26, 23
24, 20, 20, 20
23, 35, 22, 17
32, 32, 23, 37
27, 32, 29, 35
46, 30, 37, 49
46, 60, 66, 84
89, 77, 100, 148
201, 279, 427, 563
698, 581, 396, 273
236, 188, 191, 243
318, 335, 337, 234
171, 102, 85, 76
57, 57, 46, 49
38, 47, 43, 38
43, 42, 39, 42
32, 25, 33, 34
28, 35, 38, 39
29, 29, 40, 36
33, 24, 35, 40
41, 34, 40, 44
54, 44, 44, 44
48, 44, 44, 57
73, 71, 84, 85
101, 95, 108, 128
120, 124, 155, 176
226, 250, 300, 365
463, 619, 868, 1154
1677, 2252, 2541, 2374
1831, 1300, 998, 900
877, 933, 1120, 1400
1332, 1126, 852, 585
442, 374, 285, 228
180, 169, 140, 134
117, 89, 98, 90
85, 82, 72, 67
70, 59, 46, 58
77, 62, 67, 59
61, 77, 79, 65
79, 74, 90, 111
115, 113, 143, 155
225, 268, 332, 451
591, 719, 839, 832
741, 650, 537, 461
407, 406, 423, 466
485, 430, 427, 338
255, 208, 168, 145
133, 119, 98, 87
85, 58, 62, 76
44, 64, 46, 36
34, 42, 36, 31
31, 25, 24, 30
30, 20, 24, 29
20, 29, 21, 23
21, 30, 23, 26
26, 17, 28, 22
11, 19, 26, 19
24, 19, 19, 28
26, 23, 22, 25
14, 13, 11, 12
19, 19, 13, 17
17, 20, 23, 20
20, 26, 22, 11
13, 13, 20, 17
20, 18, 17, 18
11, 19, 17, 16
13, 18, 10, 23
10, 17, 16, 26
22, 15, 23, 13
17, 12, 21, 17
16, 15, 17, 16
17, 22, 17, 19
10, 20, 13, 21
17, 22, 13, 18
16, 14, 16, 17
16, 22, 14, 18
15, 18, 15, 13
18, 16, 15, 18
16, 13, 17, 19
18, 19, 19, 8
21, 26, 22, 16
18, 19, 20, 21
18, 21, 17, 18
21, 26, 24, 34
25, 26, 40, 54
52, 59, 87, 115
150, 219, 206, 161
109, 97, 75, 96
71, 97, 92, 86
129, 96, 88, 54
45, 36, 37, 29
27, 25, 23, 17
17, 14, 15, 13
28, 24, 18, 19
20, 16, 18, 8
20, 17, 16, 15
11, 16, 8, 10
9, 15, 15, 13
11, 14, 14, 16
13, 7, 10, 18
13, 11, 13, 12
7, 10, 15, 10
15, 17, 14, 5
10, 18, 18, 9
16, 24, 12, 11
12, 20, 14, 14
18, 12, 13, 13
18, 12, 16, 18
14, 13, 13, 13
11, 13, 9, 11
12, 12, 11, 15
16, 11, 11, 12
16, 12, 13, 18
9, 10, 13, 23
16, 17, 16, 15
11, 8, 14, 16
15, 15, 16, 8
15, 19, 10, 19
14, 10, 10, 14
15, 10, 13, 17
9, 12, 18, 10
9, 10, 19, 13
9, 13, 13, 14
6, 15, 11, 21
10, 13, 10, 19
11, 14, 10, 14
14, 14, 13, 8
16, 18, 9, 21
18, 12, 9, 16
16, 17, 20, 11
17, 10, 18, 11
11, 14, 16, 18
20, 17, 21, 13
14, 15, 13, 15
11, 25, 17, 22
24, 24, 19, 23
29, 19, 24, 27
38, 20, 26, 40
33, 35, 41, 44
47, 63, 70, 95
108, 121, 176, 264
272, 302, 253, 248
162, 154, 125, 123
99, 128, 150, 154
169, 132, 131, 100
76, 84, 51, 53
40, 43, 29, 34
34, 33, 20, 29
26, 19, 31, 18
16, 18, 15, 17
21, 23, 9, 22
13, 15, 12, 15
14, 16, 15, 16
15, 12, 13, 10
9, 13, 12, 12
16, 17, 8, 14
18, 15, 17, 14
11, 9, 9, 17
12, 16, 8, 11
16, 8, 17, 14
12, 11, 11, 12
10, 16, 11, 9
13, 11, 8, 14
12, 11, 12, 11
7, 19, 12, 10
11, 10, 13, 10
15, 14, 11, 20
13, 16, 15, 13
11, 3, 11, 12
11, 12, 9, 15
14, 13, 17, 12
12, 15, 9, 16
9, 12, 12, 13
12, 11, 12, 9
10, 17, 16, 13
11, 6, 11, 10
12, 13, 14, 13
11, 11, 7, 12
7, 19, 7, 11
16, 19, 14
*END

*EOF