File: ZnO_STD_Fendas/ZnO_STD_M.ASC
*TYPE		=  Raw
*CLASS		=  ASCII CLASS
*SAMPLE		=  ZnO_STD_M
*COMMENT	=  ZnO_STD_MÉDIO
*FNAME		=  ZnO_STD_M.raw
*DATE		=  16-Aug-13 22:14

*GROUP_COUNT	=  1
*GONIO		=  Ultima IV, 285
*ATTACHMENT	=  Standard Att.
*ASC		=  0, 0, 0.000000, 0.000000
*I_MONOCHRO	=  CBO, 0.000000
*C_MONOCHRO	=  Fixed Monochro.(U4), 3.354
*SLIT_NAME	=  0, DivSlit
*SLIT_NAME	=  1, DivH.L.Slit
*SLIT_NAME	=  2, SctSlit
*SLIT_NAME	=  3, RecSlit
*SLIT_NAME	=  4, Monochro RS
*COUNTER	=  Scintillation counter, 0
*POS_FORMAT	=  0
*SCAN_AXIS	=  2theta/theta
*MEAS_MODE	=  FT
*TARGET		=  29
*XRAY_CHAR	=  K-ALPHA1
*WAVE_LENGTH1	=  1.54056
*WAVE_LENGTH2	=  1.5444
*THICKNESS	=  0, 0.000000
*MU		=  0, 0.000000
*SCAN_MODE	=  2theta/theta
*SPEED_DIM	=  sec./step(FT)
*XUNIT		=  deg.
*YUNIT		=  counts
*SCALE_MODE	=  1
*REP_COUNT	=  1
*SE_COUNT	=  0
*STD_MATERIAL	=  Unknown, Unknown, 0.000000, 0.000000, 0.000000, 0.000000, 0.000000, 0.000000
*LATT_CONS	=  0, Unknown, Unknown, 0.000000, 0.000000, 0.000000, 0.000000, 0.000000, 0.000000
*SEC_COUNT	=  1
*TSPEC_SIZE	=  0
*EXTRA_SIZE	=  0
*MEMO		=

*BEGIN
*GROUP		=  0
*START		=  27
*STOP		=  80
*STEP		=  0.02
*OFFSET		=  0.000000
*SPEED		=  7
*SLIT_SPEC	=  0, 1/3deg., 1.16, 10
*SLIT_SPEC	=  1, 10mm, 8, 10
*SLIT_SPEC	=  2, 1/3deg., 0.45, 20
*SLIT_SPEC	=  3, 0.3mm, 0.3, 20
*SLIT_SPEC	=  4, No Use, 0.000000, 20
*KV		=  40
*MA		=  30
*LOW		=  0.000000
*HIGH		=  0.000000
*CTEMPER	=  0, 0.000000
*CTEMPER	=  1, 0.000000
*CTEMPER	=  2, 0.000000
*PAREX		=  0, 0.000000
*PAREX		=  1, 0.000000
*PAREX		=  2, 0.000000
*PAREX		=  3, 0.000000
*PAREX		=  4, 0.000000
*PAREX		=  5, 0.000000
*PAREX		=  6, 0.000000
*PAREX		=  7, 0.000000
*PAREX		=  8, 0.000000
*PAREX		=  9, 0.000000
*PAREX		=  10, 0.000000
*PAREX		=  11, 0.000000
*PAREX		=  12, 0.000000
*PAREX		=  13, 0.000000
*PAREX		=  14, 0.000000
*PAREX		=  15, 0.000000
*FULL_SCALE	=  1000
*INDEX		=  0, 0, 0
*COUNT		=  2651
47, 51, 33, 43
45, 36, 38, 36
35, 34, 35, 33
45, 35, 42, 42
40, 42, 36, 32
39, 44, 47, 48
40, 31, 41, 51
47, 35, 30, 42
34, 36, 41, 41
47, 44, 45, 34
38, 30, 34, 42
39, 41, 34, 43
42, 40, 37, 38
26, 47, 41, 39
44, 44, 35, 33
45, 44, 38, 43
35, 44, 33, 39
30, 36, 34, 40
35, 32, 33, 43
37, 38, 48, 38
38, 39, 37, 47
56, 33, 37, 41
44, 34, 47, 40
50, 45, 50, 34
47, 35, 52, 35
45, 38, 33, 35
46, 47, 47, 44
49, 44, 46, 40
61, 53, 32, 32
39, 37, 49, 37
49, 48, 52, 45
46, 54, 58, 45
43, 28, 55, 42
39, 42, 51, 43
52, 50, 41, 47
44, 52, 49, 46
56, 47, 48, 48
52, 54, 43, 44
48, 65, 54, 48
52, 45, 45, 42
56, 54, 32, 40
67, 54, 49, 52
47, 52, 55, 45
45, 59, 58, 44
42, 55, 51, 67
47, 63, 58, 54
68, 57, 60, 67
67, 57, 66, 71
63, 51, 66, 75
59, 79, 74, 81
85, 94, 94, 90
100, 99, 111, 118
119, 139, 119, 136
145, 162, 156, 174
199, 232, 238, 287
362, 394, 456, 532
602, 800, 968, 1273
1598, 2229, 2913, 3830
4903, 6557, 9122, 14029
20730, 26417, 26453, 21544
16751, 15795, 13993, 10615
6036, 3540, 2315, 1738
1349, 1016, 786, 637
545, 452, 364, 317
302, 258, 230, 220
206, 204, 153, 157
177, 143, 136, 111
99, 113, 79, 100
99, 79, 92, 95
75, 86, 75, 73
97, 73, 85, 69
69, 84, 62, 75
65, 59, 79, 78
74, 59, 83, 70
73, 64, 61, 65
61, 61, 61, 66
51, 52, 47, 89
68, 78, 70, 76
71, 63, 62, 57
77, 56, 64, 66
86, 64, 61, 62
71, 81, 77, 91
71, 73, 88, 82
85, 79, 76, 90
90, 86, 98, 92
89, 93, 107, 106
107, 118, 121, 124
127, 140, 140, 177
178, 197, 220, 264
315, 400, 462, 649
849, 1133, 1498, 1988
2333, 3016, 4621, 6533
9383, 12950, 14656, 14059
10550, 8586, 8131, 7719
5682, 3320, 1983, 1305
962, 747, 652, 510
421, 339, 302, 268
205, 194, 187, 176
144, 151, 155, 123
117, 140, 131, 124
114, 116, 91, 98
86, 109, 110, 117
95, 114, 102, 97
100, 102, 123, 94
120, 111, 109, 129
125, 139, 137, 114
162, 126, 154, 166
180, 174, 186, 198
220, 217, 226, 256
264, 270, 326, 320
332, 379, 420, 496
567, 615, 685, 819
1047, 1273, 1736, 2076
2586, 3235, 4014, 5233
7015, 9854, 13584, 19191
28038, 35704, 37827, 31640
24089, 21416, 21635, 19189
14069, 8539, 5309, 3627
2771, 2118, 1699, 1432
1158, 937, 768, 613
589, 466, 436, 365
315, 330, 265, 249
223, 224, 232, 192
162, 161, 137, 165
137, 141, 124, 145
103, 114, 102, 125
100, 99, 97, 75
92, 67, 75, 80
80, 82, 61, 78
69, 76, 60, 80
74, 72, 68, 72
53, 78, 68, 75
63, 81, 68, 78
67, 68, 62, 48
52, 67, 61, 67
74, 60, 54, 51
55, 54, 72, 58
51, 47, 64, 50
59, 46, 45, 45
63, 58, 73, 59
64, 48, 49, 52
64, 50, 61, 60
50, 44, 53, 50
50, 48, 51, 58
49, 62, 50, 58
58, 59, 42, 57
55, 50, 71, 53
53, 39, 58, 62
43, 48, 35, 53
52, 42, 66, 52
54, 43, 46, 50
44, 48, 68, 48
54, 50, 53, 38
56, 60, 47, 56
57, 48, 54, 51
52, 64, 45, 50
49, 54, 46, 47
44, 45, 47, 52
52, 53, 45, 48
45, 49, 52, 61
37, 48, 37, 60
40, 56, 53, 55
54, 41, 46, 50
51, 52, 58, 59
55, 38, 59, 38
42, 58, 43, 45
46, 44, 39, 51
41, 38, 46, 38
42, 53, 49, 43
39, 52, 40, 52
38, 55, 56, 50
46, 37, 41, 34
51, 27, 47, 47
35, 42, 46, 36
49, 37, 34, 49
45, 40, 40, 47
43, 37, 52, 37
46, 49, 36, 56
44, 40, 44, 51
43, 47, 43, 44
47, 50, 46, 44
46, 37, 44, 46
35, 47, 42, 46
50, 33, 46, 35
49, 46, 49, 37
32, 43, 27, 51
47, 57, 53, 52
47, 37, 47, 45
41, 38, 39, 46
40, 36, 40, 43
36, 30, 47, 44
39, 52, 46, 34
44, 51, 42, 50
60, 35, 36, 46
54, 43, 51, 45
47, 51, 40, 40
42, 59, 32, 55
34, 49, 39, 44
44, 30, 52, 53
47, 40, 61, 39
46, 40, 39, 39
40, 46, 46, 41
45, 41, 53, 47
35, 49, 35, 35
50, 29, 35, 46
44, 41, 53, 38
47, 43, 36, 41
41, 54, 39, 46
38, 38, 43, 27
44, 38, 38, 46
48, 50, 30, 45
48, 44, 44, 57
41, 42, 58, 40
39, 42, 47, 51
49, 33, 48, 42
51, 39, 46, 63
35, 45, 42, 44
41, 30, 58, 49
34, 53, 39, 46
41, 36, 58, 53
47, 33, 45, 32
48, 36, 40, 51
53, 55, 52, 52
49, 43, 39, 39
34, 51, 40, 40
47, 50, 47, 45
57, 37, 52, 42
56, 44, 43, 48
56, 43, 59, 45
25, 50, 42, 44
44, 43, 43, 40
50, 49, 31, 46
47, 60, 50, 42
48, 52, 51, 46
50, 43, 60, 49
53, 53, 47, 45
56, 44, 58, 51
49, 49, 37, 47
43, 47, 44, 43
40, 46, 46, 52
52, 41, 55, 50
44, 48, 49, 73
63, 45, 56, 38
44, 45, 61, 51
71, 58, 45, 56
62, 57, 72, 58
69, 72, 53, 74
60, 75, 80, 82
72, 84, 74, 90
83, 82, 70, 93
113, 111, 121, 113
111, 127, 144, 152
178, 211, 239, 284
291, 373, 447, 532
664, 742, 914, 1176
1474, 2081, 3016, 4580
6339, 7974, 8313, 6956
5236, 4265, 4219, 4737
4740, 4103, 2923, 1976
1378, 959, 758, 605
448, 415, 312, 282
242, 232, 185, 188
182, 132, 142, 132
137, 100, 104, 109
106, 91, 89, 83
104, 79, 80, 71
78, 63, 73, 60
64, 64, 64, 52
54, 61, 59, 60
54, 69, 58, 38
67, 67, 44, 49
53, 49, 43, 47
55, 42, 46, 53
46, 58, 53, 50
52, 40, 50, 58
56, 35, 53, 63
45, 47, 48, 42
47, 49, 49, 44
44, 51, 47, 36
37, 59, 41, 38
43, 43, 45, 37
43, 42, 55, 38
54, 39, 40, 51
36, 41, 45, 54
41, 45, 43, 41
42, 43, 58, 41
41, 35, 48, 43
30, 57, 32, 28
54, 54, 38, 40
45, 57, 42, 55
44, 43, 42, 42
51, 43, 46, 46
34, 57, 34, 44
44, 54, 42, 52
47, 64, 50, 46
40, 43, 43, 52
41, 51, 48, 52
44, 49, 52, 44
43, 53, 43, 55
47, 39, 44, 54
50, 39, 56, 49
39, 39, 51, 35
45, 55, 55, 57
52, 50, 52, 52
56, 40, 47, 51
45, 45, 38, 50
41, 51, 40, 46
44, 46, 55, 48
46, 44, 43, 41
63, 39, 46, 49
40, 49, 43, 47
39, 52, 60, 62
49, 52, 40, 44
36, 44, 53, 48
63, 44, 37, 49
51, 42, 50, 45
43, 48, 51, 45
47, 45, 49, 42
44, 41, 56, 64
50, 39, 55, 51
58, 57, 40, 43
47, 50, 53, 47
48, 55, 59, 44
56, 50, 39, 39
49, 38, 57, 55
53, 53, 54, 51
56, 57, 37, 44
45, 56, 51, 46
44, 54, 56, 49
45, 39, 48, 61
40, 52, 53, 44
51, 47, 50, 46
57, 42, 46, 51
56, 51, 51, 49
63, 50, 49, 53
59, 50, 60, 53
42, 40, 56, 61
51, 49, 60, 36
53, 47, 60, 49
60, 58, 50, 53
46, 52, 56, 62
59, 61, 71, 58
57, 40, 47, 39
62, 43, 51, 48
49, 57, 61, 53
53, 61, 47, 62
43, 57, 58, 50
55, 68, 63, 57
58, 65, 78, 55
60, 54, 46, 61
74, 88, 53, 76
73, 66, 54, 58
63, 77, 68, 49
80, 87, 58, 67
66, 70, 70, 67
65, 83, 86, 82
75, 85, 67, 80
79, 80, 94, 100
99, 87, 74, 84
103, 108, 84, 99
95, 105, 117, 109
105, 127, 118, 126
140, 147, 156, 160
160, 171, 180, 185
220, 223, 270, 270
294, 341, 400, 438
542, 571, 671, 751
879, 1048, 1245, 1508
1852, 2625, 3522, 4705
6330, 7911, 8979, 9084
7842, 6201, 5130, 4939
4975, 5210, 5460, 4936
3942, 2966, 2163, 1644
1309, 1062, 838, 699
611, 489, 461, 384
351, 309, 275, 274
202, 211, 175, 184
207, 159, 157, 147
123, 141, 132, 117
141, 104, 124, 118
122, 125, 85, 87
105, 94, 89, 91
97, 72, 82, 84
75, 83, 94, 72
87, 70, 82, 82
74, 71, 65, 85
61, 73, 55, 69
87, 71, 64, 82
73, 74, 60, 67
85, 67, 62, 76
81, 67, 76, 65
63, 54, 66, 71
65, 69, 58, 64
71, 74, 56, 74
63, 61, 71, 67
66, 68, 65, 69
78, 43, 56, 48
62, 66, 60, 48
63, 64, 64, 52
54, 58, 56, 62
67, 58, 76, 73
55, 68, 50, 58
64, 69, 57, 59
70, 64, 71, 67
69, 58, 77, 49
64, 62, 67, 57
79, 57, 60, 58
63, 69, 64, 56
63, 63, 66, 66
59, 57, 81, 45
57, 58, 65, 87
73, 49, 57, 64
75, 69, 66, 65
70, 74, 71, 62
55, 58, 51, 73
50, 64, 74, 59
64, 78, 69, 55
77, 64, 64, 79
65, 78, 72, 65
62, 69, 68, 65
72, 59, 65, 58
56, 67, 76, 59
63, 68, 82, 60
67, 54, 62, 72
64, 66, 69, 67
70, 73, 84, 78
78, 76, 56, 63
56, 86, 75, 71
79, 88, 77, 66
86, 68, 62, 76
80, 81, 81, 67
75, 62, 67, 74
75, 97, 88, 67
83, 70, 85, 89
84, 82, 89, 79
102, 80, 99, 88
93, 81, 94, 85
103, 96, 87, 120
112, 114, 105, 115
124, 125, 115, 140
170, 120, 133, 148
170, 160, 163, 191
210, 196, 231, 254
271, 306, 339, 402
422, 519, 542, 636
666, 746, 928, 1044
1269, 1585, 2099, 2749
3909, 5413, 7176, 8757
9431, 8770, 6921, 5181
4202, 4025, 4168, 4677
5126, 5078, 4437, 3366
2358, 1708, 1333, 1006
866, 696, 584, 516
447, 409, 355, 321
287, 230, 229, 205
190, 195, 180, 195
161, 163, 153, 140
121, 122, 121, 119
128, 119, 111, 120
97, 78, 131, 102
108, 101, 95, 95
96, 102, 86, 100
84, 93, 101, 79
79, 98, 84, 85
90, 75, 86, 74
62, 57, 59, 73
81, 81, 68, 74
69, 80, 70, 58
67, 66, 83, 46
62, 82, 80, 66
76, 78, 87, 74
85, 51, 70, 78
69, 71, 75, 62
58, 82, 56, 53
71, 73, 86, 72
69, 64, 66, 82
69, 73, 74, 76
88, 80, 71, 71
76, 67, 61, 75
66, 76, 91, 91
79, 79, 66, 84
75, 66, 79, 85
82, 75, 83, 80
84, 102, 77, 85
86, 83, 74, 82
88, 81, 87, 92
86, 103, 95, 124
110, 124, 138, 139
119, 139, 150, 165
177, 213, 239, 276
313, 348, 474, 562
833, 1030, 1427, 1714
1886, 1623, 1318, 975
717, 673, 694, 826
953, 967, 968, 841
591, 409, 372, 273
225, 232, 190, 163
169, 158, 147, 140
128, 134, 138, 133
134, 118, 123, 119
103, 110, 119, 128
111, 116, 118, 120
144, 142, 135, 147
116, 126, 130, 131
173, 156, 174, 200
196, 228, 208, 257
239, 263, 294, 295
356, 377, 420, 447
490, 581, 627, 733
814, 992, 1132, 1464
1790, 2276, 3085, 4179
5670, 7017, 8071, 7355
6108, 4621, 3749, 3221
3060, 3427, 3935, 4209
4319, 3887, 2977, 2378
1666, 1344, 1047, 896
731, 678, 529, 510
450, 404, 359, 308
286, 256, 264, 284
249, 237, 217, 220
226, 238, 227, 262
266, 253, 274, 320
312, 310, 374, 404
442, 479, 559, 639
777, 971, 1253, 1699
2188, 2791, 3361, 3823
3593, 3039, 2387, 1854
1622, 1652, 1720, 1825
2008, 2102, 1905, 1534
1210, 899, 773, 579
484, 416, 370, 252
287, 251, 217, 195
176, 163, 147, 149
147, 130, 105, 128
132, 117, 80, 110
82, 118, 86, 85
109, 85, 101, 87
73, 87, 83, 77
90, 86, 80, 80
52, 59, 69, 79
84, 69, 70, 72
67, 64, 81, 68
75, 60, 57, 59
63, 63, 89, 54
79, 73, 63, 67
64, 76, 57, 65
51, 50, 63, 63
77, 66, 51, 64
60, 55, 53, 71
60, 37, 42, 55
72, 51, 52, 45
48, 57, 58, 56
58, 55, 50, 54
50, 59, 50, 56
61, 46, 58, 72
84, 59, 53, 53
46, 58, 52, 48
55, 62, 45, 51
50, 55, 57, 47
52, 61, 63, 71
41, 58, 64, 59
51, 63, 69, 57
57, 66, 58, 60
50, 60, 62, 65
62, 71, 82, 65
63, 78, 81, 73
91, 95, 90, 110
120, 149, 148, 181
191, 270, 351, 496
792, 1109, 1047, 828
600, 375, 342, 241
310, 331, 400, 509
672, 553, 383, 269
210, 139, 120, 111
114, 94, 86, 71
81, 66, 74, 57
63, 56, 53, 70
61, 46, 55, 41
56, 60, 65, 54
61, 54, 46, 55
48, 52, 35, 50
48, 46, 58, 34
50, 48, 46, 45
48, 56, 37, 49
41, 42, 36, 41
43, 40, 42, 42
41, 37, 40, 37
44, 46, 37, 48
37, 46, 44, 53
43, 49, 35, 42
39, 45, 44, 50
55, 50, 43, 32
46, 55, 43, 36
30, 36, 46, 52
51, 42, 43, 47
43, 43, 52, 44
42, 40, 30, 49
33, 40, 37, 47
44, 37, 46, 42
47, 45, 47, 40
42, 48, 43, 44
54, 39, 31, 48
37, 46, 51, 33
39, 34, 51, 47
41, 53, 42, 42
41, 48, 47, 58
41, 58, 35, 46
55, 49, 40, 44
37, 43, 40, 40
46, 46, 42, 45
52, 52, 51, 41
44, 43, 41, 42
47, 42, 50, 40
57, 38, 40, 47
44, 51, 51, 54
44, 38, 42, 39
54, 63, 56, 65
62, 67, 70, 66
79, 76, 66, 81
70, 73, 81, 99
115, 91, 115, 123
136, 130, 138, 173
209, 240, 298, 353
456, 604, 820, 1007
1310, 1303, 1128, 922
792, 621, 514, 460
458, 561, 632, 647
708, 691, 590, 470
366, 261, 210, 190
143, 164, 134, 110
136, 90, 88, 72
89, 62, 61, 63
56, 50, 51, 39
68, 56, 54, 58
59, 48, 55, 49
53, 58, 44, 44
49, 47, 47, 35
51, 41, 46, 60
51, 37, 47, 36
34, 39, 42, 46
37, 41, 58, 46
36, 54, 38, 41
39, 46, 33, 37
46, 38, 33, 31
47, 42, 44, 38
34, 48, 51, 31
41, 41, 39, 36
38, 42, 42, 42
44, 29, 25, 41
34, 34, 43, 35
49, 33, 50, 35
38, 33, 36, 51
40, 41, 39, 39
40, 36, 34, 36
34, 34, 36, 43
33, 40, 29, 36
45, 36, 32, 35
37, 44, 36, 30
36, 44, 50, 53
45, 45, 34, 40
46, 31, 46, 46
39, 43, 36, 29
42, 45, 53
*END

*EOF