File: ZnO_STD_Fendas/ZnO_STD_G.ASC
*TYPE		=  Raw
*CLASS		=  ASCII CLASS
*SAMPLE		=  ZnO_STD_G
*COMMENT	=  ZnO_STD_GROSSO
*FNAME		=  ZnO_STD_G.raw
*DATE		=  15-Aug-13 17:06

*GROUP_COUNT	=  1
*GONIO		=  Ultima IV, 285
*ATTACHMENT	=  Standard Att.
*ASC		=  0, 0, 0.000000, 0.000000
*I_MONOCHRO	=  CBO, 0.000000
*C_MONOCHRO	=  Fixed Monochro.(U4), 3.354
*SLIT_NAME	=  0, DivSlit
*SLIT_NAME	=  1, DivH.L.Slit
*SLIT_NAME	=  2, SctSlit
*SLIT_NAME	=  3, RecSlit
*SLIT_NAME	=  4, Monochro RS
*COUNTER	=  Scintillation counter, 0
*POS_FORMAT	=  0
*SCAN_AXIS	=  2theta/theta
*MEAS_MODE	=  FT
*TARGET		=  29
*XRAY_CHAR	=  K-ALPHA1
*WAVE_LENGTH1	=  1.54056
*WAVE_LENGTH2	=  1.5444
*THICKNESS	=  0, 0.000000
*MU		=  0, 0.000000
*SCAN_MODE	=  2theta/theta
*SPEED_DIM	=  sec./step(FT)
*XUNIT		=  deg.
*YUNIT		=  counts
*SCALE_MODE	=  1
*REP_COUNT	=  1
*SE_COUNT	=  0
*STD_MATERIAL	=  Unknown, Unknown, 0.000000, 0.000000, 0.000000, 0.000000, 0.000000, 0.000000
*LATT_CONS	=  0, Unknown, Unknown, 0.000000, 0.000000, 0.000000, 0.000000, 0.000000, 0.000000
*SEC_COUNT	=  1
*TSPEC_SIZE	=  0
*EXTRA_SIZE	=  0
*MEMO		=

*BEGIN
*GROUP		=  0
*START		=  27
*STOP		=  80
*STEP		=  0.02
*OFFSET		=  0.000000
*SPEED		=  7
*SLIT_SPEC	=  0, 2/3deg., 2.33, 10
*SLIT_SPEC	=  1, 10mm, 8, 10
*SLIT_SPEC	=  2, 2/3deg., 0.89, 20
*SLIT_SPEC	=  3, 0.6mm, 0.6, 20
*SLIT_SPEC	=  4, No Use, 0.000000, 20
*KV		=  40
*MA		=  30
*LOW		=  0.000000
*HIGH		=  0.000000
*CTEMPER	=  0, 0.000000
*CTEMPER	=  1, 0.000000
*CTEMPER	=  2, 0.000000
*PAREX		=  0, 0.000000
*PAREX		=  1, 0.000000
*PAREX		=  2, 0.000000
*PAREX		=  3, 0.000000
*PAREX		=  4, 0.000000
*PAREX		=  5, 0.000000
*PAREX		=  6, 0.000000
*PAREX		=  7, 0.000000
*PAREX		=  8, 0.000000
*PAREX		=  9, 0.000000
*PAREX		=  10, 0.000000
*PAREX		=  11, 0.000000
*PAREX		=  12, 0.000000
*PAREX		=  13, 0.000000
*PAREX		=  14, 0.000000
*PAREX		=  15, 0.000000
*FULL_SCALE	=  100
*INDEX		=  0, 0, 0
*COUNT		=  2651
132, 146, 155, 144
133, 144, 147, 163
145, 148, 144, 135
171, 152, 145, 162
138, 137, 140, 154
147, 155, 138, 149
158, 136, 139, 158
125, 134, 153, 133
174, 162, 137, 127
141, 149, 145, 120
143, 152, 145, 136
130, 140, 127, 149
139, 145, 166, 141
142, 151, 164, 140
139, 145, 139, 142
150, 157, 156, 155
136, 143, 157, 143
149, 149, 130, 163
145, 154, 138, 150
141, 156, 128, 146
146, 159, 134, 147
157, 138, 171, 139
167, 148, 134, 156
174, 158, 135, 143
144, 158, 130, 142
155, 159, 139, 151
160, 157, 150, 164
144, 161, 175, 174
156, 151, 155, 161
162, 156, 171, 176
156, 174, 168, 155
182, 165, 172, 155
149, 144, 155, 167
158, 152, 156, 175
159, 164, 177, 152
174, 160, 139, 150
172, 170, 156, 168
164, 146, 184, 164
178, 160, 163, 164
165, 164, 183, 147
143, 186, 171, 181
170, 169, 166, 196
162, 165, 204, 140
190, 155, 192, 168
184, 194, 209, 188
216, 220, 208, 219
236, 263, 225, 217
253, 228, 224, 268
272, 273, 295, 298
302, 320, 347, 330
331, 371, 359, 357
404, 403, 410, 411
435, 463, 500, 516
529, 563, 615, 684
709, 748, 847, 997
1068, 1271, 1540, 1895
2377, 2833, 3616, 4512
5946, 7659, 10035, 13609
18548, 26052, 36949, 50818
62511, 68768, 67258, 59885
51640, 43968, 36678, 28190
19694, 12222, 7852, 5541
4140, 3223, 2502, 2065
1749, 1513, 1268, 1091
932, 885, 767, 688
676, 632, 580, 505
528, 434, 434, 415
410, 404, 360, 369
327, 349, 334, 313
314, 297, 301, 300
283, 295, 286, 227
269, 231, 255, 240
242, 233, 218, 231
227, 236, 221, 204
239, 228, 218, 209
221, 198, 232, 242
202, 195, 213, 228
232, 253, 234, 240
252, 229, 224, 244
240, 236, 232, 239
252, 226, 250, 251
273, 271, 256, 291
292, 296, 320, 302
293, 289, 316, 307
338, 324, 320, 361
360, 375, 360, 348
389, 393, 404, 457
463, 512, 542, 569
655, 737, 854, 972
1100, 1367, 1734, 2234
2851, 3674, 4809, 6303
8238, 11442, 16417, 22875
30591, 36037, 37486, 34767
29869, 25592, 22650, 19363
14967, 10426, 6811, 4252
3060, 2387, 1827, 1548
1301, 1063, 907, 806
692, 647, 598, 605
509, 504, 478, 496
446, 449, 428, 399
463, 415, 437, 414
396, 403, 380, 368
415, 371, 384, 388
442, 422, 422, 400
416, 475, 426, 499
504, 518, 502, 517
531, 575, 560, 569
585, 620, 623, 693
721, 735, 734, 823
892, 917, 956, 1108
1247, 1265, 1343, 1612
1867, 2086, 2570, 3060
3784, 4640, 5791, 7083
8850, 11482, 14874, 19779
26859, 36920, 52003, 71584
89820, 99995, 99014, 87590
75793, 66723, 60672, 51088
39491, 27405, 17980, 12443
8883, 6657, 5332, 4224
3442, 2828, 2374, 2084
1833, 1639, 1323, 1247
1166, 1048, 983, 857
835, 747, 713, 664
653, 624, 558, 546
532, 485, 432, 415
431, 426, 373, 350
363, 318, 312, 293
323, 279, 287, 269
288, 278, 254, 240
260, 221, 249, 242
236, 233, 218, 209
244, 227, 212, 205
239, 215, 206, 223
217, 185, 223, 200
213, 212, 182, 163
178, 159, 176, 182
182, 190, 157, 178
209, 206, 197, 188
160, 184, 179, 185
183, 196, 181, 160
194, 176, 147, 163
150, 195, 203, 196
170, 177, 157, 164
166, 156, 174, 192
191, 180, 184, 202
169, 159, 177, 158
179, 169, 160, 165
180, 174, 165, 154
180, 165, 161, 189
159, 187, 144, 165
140, 154, 159, 152
158, 167, 180, 159
147, 156, 159, 158
156, 132, 162, 147
157, 168, 156, 136
152, 170, 141, 153
159, 141, 155, 137
144, 146, 146, 156
155, 145, 156, 153
158, 147, 164, 126
159, 170, 139, 147
141, 158, 148, 142
131, 138, 152, 150
156, 158, 130, 177
158, 156, 146, 119
140, 160, 136, 167
160, 139, 147, 133
152, 142, 134, 143
149, 154, 158, 155
155, 160, 156, 151
135, 149, 138, 142
131, 152, 140, 153
154, 139, 140, 141
147, 145, 152, 156
130, 148, 134, 137
160, 132, 160, 123
150, 144, 148, 139
142, 124, 128, 141
125, 140, 126, 132
152, 144, 166, 143
144, 152, 113, 148
140, 128, 169, 124
160, 147, 139, 126
136, 137, 116, 145
152, 131, 151, 140
153, 125, 138, 153
141, 137, 130, 155
144, 149, 161, 139
144, 144, 145, 130
148, 148, 133, 146
142, 146, 141, 135
165, 139, 147, 132
137, 153, 137, 154
144, 140, 151, 153
123, 138, 139, 160
156, 149, 119, 147
111, 138, 117, 144
163, 126, 140, 129
113, 160, 134, 138
160, 132, 143, 143
134, 162, 135, 134
159, 144, 126, 118
146, 142, 125, 133
128, 155, 128, 129
118, 119, 136, 142
139, 120, 129, 142
129, 141, 135, 124
146, 115, 135, 148
136, 112, 154, 137
132, 135, 139, 129
116, 135, 126, 143
137, 142, 149, 144
117, 131, 148, 144
148, 134, 150, 139
124, 152, 153, 144
147, 128, 130, 141
140, 146, 147, 124
150, 165, 140, 141
153, 141, 161, 157
126, 154, 163, 142
139, 140, 133, 114
136, 126, 133, 148
135, 152, 156, 162
149, 153, 126, 166
140, 139, 131, 145
135, 144, 118, 135
122, 149, 137, 124
143, 116, 143, 134
134, 140, 160, 166
143, 141, 118, 131
134, 116, 137, 157
159, 134, 133, 141
156, 133, 133, 156
135, 133, 149, 144
147, 139, 184, 143
164, 161, 156, 156
116, 152, 142, 154
155, 146, 128, 148
155, 159, 195, 155
162, 174, 171, 170
182, 175, 152, 181
178, 191, 195, 183
172, 193, 180, 189
187, 174, 181, 188
216, 194, 215, 201
199, 230, 188, 206
246, 226, 239, 220
232, 249, 255, 211
272, 279, 247, 246
291, 308, 314, 337
331, 370, 367, 420
407, 431, 472, 527
593, 710, 786, 957
1082, 1301, 1520, 1791
2068, 2426, 3018, 4107
5613, 7961, 11505, 16804
21997, 24220, 24478, 21718
17938, 15891, 14865, 14423
13986, 12694, 9959, 7181
4847, 3304, 2435, 1907
1524, 1319, 1049, 983
835, 744, 673, 549
529, 465, 468, 376
404, 349, 369, 334
320, 267, 283, 272
235, 262, 286, 255
234, 204, 235, 237
232, 196, 187, 216
189, 210, 178, 175
165, 191, 169, 179
170, 183, 172, 158
170, 168, 170, 170
170, 170, 157, 167
172, 154, 164, 167
147, 147, 160, 158
142, 163, 164, 162
170, 140, 152, 160
150, 136, 135, 171
150, 152, 153, 136
158, 139, 162, 158
151, 167, 144, 163
156, 155, 143, 159
157, 138, 125, 145
139, 134, 133, 157
139, 121, 135, 149
135, 150, 151, 147
143, 152, 135, 149
153, 137, 159, 132
157, 147, 129, 144
121, 148, 142, 148
149, 137, 133, 135
160, 157, 156, 134
143, 155, 125, 165
155, 143, 129, 147
159, 145, 138, 117
154, 136, 139, 144
145, 139, 138, 153
152, 119, 151, 136
120, 124, 144, 133
117, 131, 157, 134
149, 146, 154, 153
115, 142, 154, 133
169, 127, 159, 132
130, 148, 128, 130
141, 142, 143, 164
141, 147, 124, 146
121, 156, 131, 128
136, 119, 137, 145
125, 131, 130, 125
136, 142, 141, 128
149, 174, 151, 167
130, 150, 160, 117
142, 128, 153, 153
141, 159, 139, 139
134, 162, 126, 130
151, 150, 136, 135
140, 134, 147, 153
149, 156, 149, 146
136, 165, 156, 160
149, 157, 147, 143
146, 145, 160, 151
110, 126, 140, 153
147, 137, 152, 133
136, 144, 154, 105
128, 147, 152, 153
139, 155, 140, 121
148, 165, 151, 128
156, 151, 175, 159
166, 146, 155, 175
145, 164, 154, 155
151, 174, 154, 150
143, 194, 159, 145
154, 172, 145, 159
164, 157, 182, 134
153, 161, 152, 153
146, 164, 163, 145
162, 157, 187, 171
153, 169, 149, 156
161, 174, 153, 157
166, 155, 133, 181
154, 158, 165, 171
168, 149, 174, 159
149, 131, 161, 167
154, 179, 191, 175
163, 182, 175, 189
163, 191, 157, 199
188, 175, 191, 188
175, 205, 182, 218
202, 214, 182, 187
226, 176, 228, 202
209, 200, 231, 193
226, 240, 237, 240
213, 205, 212, 214
230, 231, 243, 205
235, 216, 260, 268
248, 217, 258, 243
258, 254, 257, 283
281, 319, 291, 280
302, 302, 314, 302
299, 320, 347, 353
354, 343, 386, 378
388, 386, 429, 431
413, 465, 494, 511
606, 545, 618, 679
692, 744, 818, 952
965, 1231, 1236, 1527
1710, 1951, 2291, 2576
3063, 3563, 4320, 5371
7063, 9570, 12908, 17061
22259, 26884, 28581, 27479
25183, 21134, 18010, 16567
16519, 16911, 16484, 15210
13038, 9986, 7457, 5585
4396, 3360, 2763, 2296
1951, 1682, 1509, 1310
1182, 1039, 928, 848
801, 744, 683, 597
551, 541, 511, 501
509, 452, 407, 432
411, 358, 372, 379
321, 367, 333, 319
332, 304, 321, 275
309, 291, 277, 307
275, 268, 263, 271
253, 258, 227, 290
244, 250, 239, 242
250, 261, 226, 254
201, 229, 221, 247
252, 218, 196, 230
216, 207, 237, 187
208, 204, 196, 225
192, 236, 222, 182
200, 196, 178, 202
184, 224, 212, 187
194, 193, 179, 224
223, 186, 187, 161
188, 201, 200, 192
184, 200, 213, 197
197, 190, 221, 205
190, 170, 170, 207
187, 188, 220, 187
191, 205, 208, 208
188, 177, 208, 182
205, 182, 200, 202
168, 214, 191, 181
185, 218, 196, 214
217, 219, 191, 207
189, 216, 197, 174
190, 212, 206, 224
199, 183, 199, 190
201, 197, 209, 205
173, 166, 180, 192
207, 187, 198, 197
200, 199, 206, 198
201, 195, 209, 171
187, 187, 214, 176
196, 217, 201, 170
193, 193, 191, 191
214, 208, 194, 194
204, 227, 227, 198
217, 194, 209, 208
196, 222, 201, 216
204, 215, 192, 219
217, 208, 234, 207
230, 212, 223, 253
216, 208, 217, 223
223, 216, 236, 223
211, 201, 262, 199
238, 237, 237, 242
263, 230, 241, 243
252, 244, 250, 229
259, 256, 305, 251
275, 288, 253, 269
266, 254, 266, 238
286, 286, 299, 296
277, 282, 292, 313
297, 295, 326, 311
341, 346, 311, 353
354, 403, 362, 346
363, 407, 391, 432
427, 427, 447, 476
495, 543, 561, 611
666, 669, 741, 824
899, 1020, 1103, 1230
1322, 1528, 1780, 2003
2162, 2514, 2989, 3505
4402, 5573, 7236, 9647
13117, 17886, 22283, 25916
26752, 24878, 20797, 16547
13385, 12585, 13095, 14022
14794, 14740, 13111, 10421
7862, 5761, 4401, 3313
2677, 2262, 1918, 1605
1409, 1234, 1115, 1021
942, 916, 816, 672
642, 586, 575, 548
505, 497, 480, 469
452, 435, 393, 383
348, 386, 388, 381
352, 351, 333, 327
351, 308, 313, 289
306, 283, 284, 258
283, 305, 308, 256
316, 281, 298, 256
261, 257, 234, 260
252, 253, 238, 246
267, 251, 269, 248
247, 227, 242, 236
232, 220, 214, 241
225, 239, 239, 216
218, 221, 219, 212
221, 225, 200, 226
220, 217, 228, 218
242, 207, 256, 204
226, 231, 262, 215
241, 228, 244, 230
230, 208, 214, 224
223, 256, 225, 222
224, 248, 202, 228
262, 225, 227, 232
234, 252, 245, 221
224, 238, 248, 246
245, 240, 257, 250
246, 229, 257, 289
261, 257, 253, 274
265, 282, 300, 270
317, 312, 320, 323
347, 349, 392, 413
449, 479, 535, 545
616, 710, 772, 952
1002, 1284, 1521, 2019
2456, 3167, 3908, 4372
4664, 4200, 3561, 2906
2396, 2213, 2215, 2362
2544, 2578, 2665, 2331
1833, 1394, 1071, 878
770, 673, 565, 538
510, 463, 460, 399
408, 431, 418, 424
405, 394, 401, 383
390, 422, 341, 359
399, 377, 393, 386
415, 405, 427, 409
459, 485, 450, 485
529, 531, 553, 560
581, 657, 669, 767
793, 892, 919, 1003
1098, 1132, 1319, 1435
1593, 1725, 2061, 2231
2599, 3115, 3812, 4624
6008, 7770, 10203, 13446
16625, 19023, 19751, 19079
16848, 13843, 11628, 10368
9824, 10261, 10808, 11187
10974, 10542, 8906, 6970
5436, 4157, 3352, 2703
2246, 1959, 1699, 1435
1355, 1200, 1120, 1020
965, 856, 820, 799
803, 740, 754, 729
743, 675, 765, 740
810, 824, 850, 919
962, 972, 1153, 1198
1397, 1507, 1809, 2095
2652, 3278, 4296, 5423
6868, 8446, 9371, 10013
9474, 8362, 6955, 5872
5309, 4966, 5078, 5410
5675, 5665, 5248, 4517
3673, 2932, 2278, 1839
1593, 1297, 1108, 1022
862, 792, 669, 653
598, 541, 494, 478
459, 432, 400, 368
387, 324, 344, 285
323, 319, 337, 262
297, 253, 278, 259
234, 256, 229, 245
271, 230, 270, 274
254, 224, 234, 186
228, 202, 213, 212
209, 200, 219, 248
211, 215, 202, 195
194, 205, 206, 201
174, 194, 201, 199
182, 191, 204, 207
181, 189, 170, 202
170, 173, 187, 176
183, 200, 138, 206
193, 183, 185, 180
135, 184, 174, 177
186, 163, 166, 186
179, 145, 176, 156
155, 153, 182, 161
184, 174, 167, 172
182, 170, 134, 168
161, 152, 160, 159
148, 172, 162, 180
163, 198, 177, 165
177, 169, 150, 179
149, 143, 147, 155
188, 181, 170, 188
174, 166, 171, 199
188, 179, 209, 171
204, 225, 217, 211
232, 224, 239, 238
250, 301, 307, 355
379, 466, 505, 615
764, 961, 1280, 1994
2393, 2569, 2373, 1906
1442, 1116, 938, 867
858, 1029, 1242, 1337
1319, 1210, 981, 751
624, 470, 376, 328
287, 247, 230, 254
252, 219, 209, 171
217, 169, 162, 173
170, 165, 149, 186
185, 156, 144, 160
152, 159, 161, 156
148, 146, 155, 152
158, 165, 161, 140
147, 153, 138, 149
152, 151, 156, 158
156, 142, 141, 145
123, 131, 165, 134
158, 143, 159, 160
136, 118, 142, 137
138, 134, 147, 143
145, 123, 149, 140
134, 130, 156, 134
132, 118, 138, 103
136, 115, 136, 142
149, 134, 138, 123
136, 138, 121, 127
124, 133, 135, 125
134, 145, 119, 129
132, 140, 120, 136
164, 133, 141, 140
137, 134, 130, 141
136, 124, 127, 131
124, 114, 126, 128
144, 139, 128, 135
139, 131, 110, 136
124, 145, 159, 134
123, 125, 132, 121
149, 151, 125, 138
150, 133, 150, 114
131, 129, 131, 148
132, 136, 149, 125
165, 123, 146, 134
143, 136, 139, 141
132, 155, 170, 152
160, 154, 152, 145
135, 144, 159, 163
158, 157, 158, 158
138, 165, 176, 170
192, 237, 203, 198
200, 236, 224, 223
248, 250, 271, 284
272, 303, 333, 364
417, 426, 479, 563
608, 786, 966, 1113
1523, 1903, 2383, 2803
3130, 3133, 2902, 2562
2073, 1769, 1521, 1428
1500, 1516, 1680, 1806
1816, 1726, 1484, 1309
1088, 807, 721, 587
509, 434, 404, 336
295, 264, 264, 288
227, 260, 220, 207
217, 223, 190, 204
179, 179, 162, 144
156, 160, 149, 162
150, 132, 143, 133
139, 159, 135, 142
128, 165, 122, 144
121, 153, 113, 118
134, 135, 126, 119
156, 139, 128, 139
134, 136, 131, 134
113, 128, 105, 131
125, 133, 118, 126
120, 116, 133, 112
126, 124, 128, 117
110, 111, 125, 131
141, 126, 123, 132
108, 121, 131, 113
110, 130, 109, 113
129, 106, 141, 133
134, 120, 104, 127
121, 113, 111, 109
104, 141, 140, 117
92, 118, 135, 120
126, 124, 93, 115
124, 127, 112, 127
124, 107, 128, 99
125, 96, 107, 112
115, 103, 109, 125
123, 116, 149, 121
112, 112, 119, 128
119, 131, 141
*END

*EOF